Folder: crown/samples/textrenderer/res

Note: README.md
crown - Lightweight, flexible, cross-platform game engine that tries to Keep It Simple.
=====

1. Dependencies

	Crown Engine depends on a number of third-party libraries.
	Some of them, like luajit, are included in this SDK, so you
	do not need to worry too much.

	However, some other libraries are not included due to their
	excessive size or for some other particular reasons.
	In order to be able to successfully build the engine, you
	have to install and/or properly configure the following packages:

	- Linux

		* zlib
		* GLEW
		* Xlib
		* Xrandr
		* nVidia PhysX

	- Android

		* Android NDK and SDK
		* nVidia PhysX

	- Windows:

		* zlib
		* GLEW
		* nVidia PhysX

2. Building

	The steps required for building the engine in a default and pretty
	safe manner are summarized below for each supported platform.

	All the commands and/or operations must be performed in the root
	directory of the project (i.e. the same as this file):

	- Linux

		1. $ mkdir build
		2. $ cd build
		3. $ cmake .. -DCMAKE_INSTALL_PREFIX=$HOME/your/install/dir -DCROWN_BUILD=<build>
		   (read below for valid build strings)
		4. $ make
		5. $ make install

		'CROWN_BUILD' valid values right now are:

 			* linux-debug-32
 			* linux-development-32
 			* linux-release-32
 			* linux-debug-64
 			* linux-development-64
 			* linux-release-64


	- Windows

		1. Create a folder named 'build'
		2. Open a terminal and:
		3. cd build
		4. cmake.exe .. -DCMAKE_INSTALL_PREFIX=C:/your/install/dir -DCROWN_BUILD=<build>
		5. Open the generated Visual Studio solution and build/install from there

		'CROWN_BUILD' valid values right now are:

 			* windows-debug-32
 			* windows-development-32
 			* windows-release-32
 			* windows-debug-64
 			* windows-development-64
 			* windows-release-64


	- Android

		1. $ cd utils
		2. $ ruby crown-android.rb --target <android-target> --name <project-name> --path <project-path>

	You can also use the GUI front-end of CMake which can, less or more, simplify
	the overall 'complexity' of building from the terminal.

 3. System requirements

 	In order to be able to run the engine, no particular configurations are needed:

 	- Linux

 		* 32/64-bit distribution
 		* x86/x86_64 CPU
 		* The latest driver for your GPU (OpenGL >= 2.1)

 	- Windows

 		* 64-bit Windows version (Windows 7+)
 		* x86_64 CPU
 		* The latest driver for your GPU (OpenGL >= 2.1)

 	- Android

 		* Android 2.3.3+
 		* ARMv7 CPU
 		* OpenGL|ES 2 compatible GPU

 4. Known issues

 	- Linux

 		* Some open-source GPU drivers, like the Intel one, make call to 'operator new'
 		  and thus do not work at the moment with Crown Engine.

File: arial.tga.txt
32 0.000000 0.050781 0.000000 0.066406 0.000000 0.000000 8.000000 0.000000
33 0.056641 0.107422 0.000000 0.066406 4.000000 20 8.000000 20
34 0.113281 0.164062 0.000000 0.066406 10 7.000000 13 20
35 0.169922 0.220703 0.000000 0.066406 15 20 15 20
36 0.226562 0.277344 0.000000 0.066406 12 23 15 21
37 0.283203 0.333984 0.000000 0.066406 22 21 24 20
38 0.339844 0.390625 0.000000 0.066406 18 20 20 20
39 0.396484 0.447266 0.000000 0.066406 4.000000 7.000000 6.000000 20
40 0.453125 0.503906 0.000000 0.066406 7.000000 25 9.000000 20
41 0.509766 0.560547 0.000000 0.066406 7.000000 25 9.000000 20
42 0.566406 0.617188 0.000000 0.066406 10 9.000000 11 20
43 0.623047 0.673828 0.000000 0.066406 14 14 16 17
44 0.000000 0.050781 0.072266 0.138672 4.000000 8.000000 8.000000 4.000000
45 0.056641 0.107422 0.072266 0.138672 8.000000 4.000000 9.000000 9.000000
46 0.113281 0.164062 0.072266 0.138672 4.000000 4.000000 8.000000 4.000000
47 0.169922 0.220703 0.072266 0.138672 9.000000 20 8.000000 20
48 0.226562 0.277344 0.072266 0.138672 13 20 15 20
49 0.283203 0.333984 0.072266 0.138672 9.000000 20 15 20
50 0.339844 0.390625 0.072266 0.138672 13 20 15 20
51 0.396484 0.447266 0.072266 0.138672 13 20 15 20
52 0.453125 0.503906 0.072266 0.138672 14 20 15 20
53 0.509766 0.560547 0.072266 0.138672 13 20 15 20
54 0.566406 0.617188 0.072266 0.138672 13 20 15 20
55 0.623047 0.673828 0.072266 0.138672 13 20 15 20
56 0.000000 0.050781 0.144531 0.210938 13 20 15 20
57 0.056641 0.107422 0.144531 0.210938 13 20 15 20
58 0.113281 0.164062 0.144531 0.210938 4.000000 15 10 15
59 0.169922 0.220703 0.144531 0.210938 4.000000 19 10 15
60 0.226562 0.277344 0.144531 0.210938 13 15 16 17
61 0.283203 0.333984 0.144531 0.210938 14 10 16 15
62 0.339844 0.390625 0.144531 0.210938 13 15 16 17
63 0.396484 0.447266 0.144531 0.210938 14 20 17 20
64 0.453125 0.503906 0.144531 0.210938 25 27 26 20
65 0.509766 0.560547 0.144531 0.210938 19 20 19 20
66 0.566406 0.617188 0.144531 0.210938 17 20 20 20
67 0.623047 0.673828 0.144531 0.210938 18 20 20 20
68 0.000000 0.050781 0.216797 0.283203 17 20 20 20
69 0.056641 0.107422 0.216797 0.283203 15 20 18 20
70 0.113281 0.164062 0.216797 0.283203 14 20 17 20
71 0.169922 0.220703 0.216797 0.283203 18 20 21 20
72 0.226562 0.277344 0.216797 0.283203 16 20 20 20
73 0.283203 0.333984 0.216797 0.283203 4.000000 20 8.000000 20
74 0.339844 0.390625 0.216797 0.283203 13 20 15 20
75 0.396484 0.447266 0.216797 0.283203 18 20 20 20
76 0.453125 0.503906 0.216797 0.283203 14 20 17 20
77 0.509766 0.560547 0.216797 0.283203 19 20 21 20
78 0.566406 0.617188 0.216797 0.283203 16 20 20 20
79 0.623047 0.673828 0.216797 0.283203 19 20 21 20
80 0.000000 0.050781 0.289062 0.355469 15 20 18 20
81 0.056641 0.107422 0.289062 0.355469 20 22 21 20
82 0.113281 0.164062 0.289062 0.355469 18 20 20 20
83 0.169922 0.220703 0.289062 0.355469 16 20 18 20
84 0.226562 0.277344 0.289062 0.355469 16 20 18 20
85 0.283203 0.333984 0.289062 0.355469 16 20 20 20
86 0.339844 0.390625 0.289062 0.355469 17 20 18 20
87 0.396484 0.447266 0.289062 0.355469 25 20 25 20
88 0.453125 0.503906 0.289062 0.355469 18 20 18 20
89 0.509766 0.560547 0.289062 0.355469 20 20 18 20
90 0.566406 0.617188 0.289062 0.355469 16 20 17 20
91 0.623047 0.673828 0.289062 0.355469 7.000000 25 9.000000 20
92 0.000000 0.050781 0.361328 0.427734 9.000000 20 8.000000 20
93 0.056641 0.107422 0.361328 0.427734 7.000000 25 9.000000 20
94 0.113281 0.164062 0.361328 0.427734 12 10 16 20
95 0.169922 0.220703 0.361328 0.427734 16 3.000000 15 -2.000000
96 0.226562 0.277344 0.361328 0.427734 6.000000 4.000000 9.000000 20
97 0.283203 0.333984 0.361328 0.427734 13 15 15 15
98 0.339844 0.390625 0.361328 0.427734 14 20 17 20
99 0.396484 0.447266 0.361328 0.427734 13 15 15 15
100 0.453125 0.503906 0.361328 0.427734 14 20 17 20
101 0.509766 0.560547 0.361328 0.427734 14 15 15 15
102 0.566406 0.617188 0.361328 0.427734 10 20 9.000000 20
103 0.623047 0.673828 0.361328 0.427734 15 20 17 15
104 0.000000 0.050781 0.433594 0.500000 13 20 17 20
105 0.056641 0.107422 0.433594 0.500000 4.000000 20 8.000000 20
106 0.113281 0.164062 0.433594 0.500000 7.000000 25 8.000000 20
107 0.169922 0.220703 0.433594 0.500000 13 20 15 20
108 0.226562 0.277344 0.433594 0.500000 4.000000 20 8.000000 20
109 0.283203 0.333984 0.433594 0.500000 22 15 26 15
110 0.339844 0.390625 0.433594 0.500000 13 15 17 15
111 0.396484 0.447266 0.433594 0.500000 15 15 17 15
112 0.453125 0.503906 0.433594 0.500000 14 20 17 15
113 0.509766 0.560547 0.433594 0.500000 14 20 17 15
114 0.566406 0.617188 0.433594 0.500000 9.000000 15 11 15
115 0.623047 0.673828 0.433594 0.500000 13 15 15 15
116 0.000000 0.050781 0.505859 0.572266 9.000000 20 9.000000 20
117 0.056641 0.107422 0.505859 0.572266 13 15 17 15
118 0.113281 0.164062 0.505859 0.572266 15 15 15 15
119 0.169922 0.220703 0.505859 0.572266 21 15 21 15
120 0.226562 0.277344 0.505859 0.572266 15 15 15 15
121 0.283203 0.333984 0.505859 0.572266 17 20 15 15
122 0.339844 0.390625 0.505859 0.572266 12 15 14 15
123 0.396484 0.447266 0.505859 0.572266 9.000000 25 11 20
124 0.453125 0.503906 0.505859 0.572266 3.000000 25 7.000000 20
125 0.509766 0.560547 0.505859 0.572266 9.000000 25 11 20
126 0.566406 0.617188 0.505859 0.572266 14 6.000000 16 13